Folder: lapyuta/UVI/filter

Note: UVI/filter/CaF2_t3mm_transmittance.txt
# Wavelength [nm]	Transmittance
121	0.00142724
121.2	0.00055255
121.4	2.0585E-05
121.6	7.89702E-05
121.8	0.000159571
122	0.000435278
122.2	0.001004676
122.4	0.001397242
122.6	0.003101568
122.8	0.008761606
123	0.019813722
123.2	0.040391809
123.4	0.072855834
123.6	0.14613936
123.8	0.228532736
124	0.297423202
124.2	0.386965634
124.4	0.458294728
124.6	0.518769385
124.8	0.560829935
125	0.58728966
125.2	0.644386511
125.4	0.672196239
125.6	0.678052523
125.8	0.687149458
126	0.704820256
130	0.776078311
135	0.792318634
140	0.803430691

Note: UVI/filter/FN157-N-1D-CQ-120 1100nm-NI-%T.txt
120	0.00043
121	0.000473
122	0.000516
123	0.000602
124	0.000645
125	0.000774
126	0.00086
127	0.000946
128	0.001075
129	0.001247
130	0.001462
131	0.00172
132	0.001978
133	0.002365
134	0.002838
135	0.003397
136	0.004085
137	0.004945
138	0.00602
139	0.007353
140	0.009073
141	0.011223
142	0.013932
143	0.017286
144	0.021457
145	0.078518
146	0.281564
147	1.878455
148	12.295076
149	14.307734
150	16.35505
151	17.955252
152	19.349355
153	20.409434
154	21.204676
155	21.787283
156	22.119845
157	22.145043
158	21.983148
159	21.77692
160	21.398391
161	21.131447
162	20.778202
163	20.299698
164	19.74173
165	19.093376
166	18.379533
167	17.606393
168	16.788748
169	15.726906
170	14.670439
171	13.611951
172	12.626133
173	11.679875
174	10.783497
175	9.92268
176	9.120945
177	8.391149
178	7.717296
179	7.105879
180	6.545374
181	6.021978
182	5.544248
183	5.104702
184	4.715509
185	4.383979
186	4.05318
187	3.741989
188	3.449245
189	3.171379
190	2.916991
191	2.71545
192	2.531926
193	2.367064
194	2.21794
195	2.081974
196	1.958908
197	1.844227
198	1.739737
199	1.648792
200	1.564512
201	1.485392
202	1.411518
203	1.340697
204	1.274047
205	1.21174
206	1.152486
207	1.09564
208	1.041546
209	0.990763
210	0.942259
211	0.896765
212	0.854281
213	0.818118
214	0.78604
215	0.760756
216	0.736117
217	0.712252
218	0.683958
219	0.652138
220	0.621651
221	0.5934
222	0.570653
223	0.549669
224	0.529932
225	0.511055
226	0.491017
227	0.471796
228	0.453263
229	0.434945
230	0.41796
231	0.402609
232	0.388032
233	0.373928
234	0.360512
235	0.347784
236	0.335615
237	0.325037
238	0.314889
239	0.304354
240	0.294464
241	0.284918
242	0.275974
243	0.269094
244	0.262816
245	0.256151
246	0.249615
247	0.243036
248	0.236672
249	0.229663
250	0.222912
251	0.215946
252	0.209324
253	0.20339
254	0.199176
255	0.19522
256	0.19135
257	0.187394
258	0.183567
259	0.178321
260	0.172731
261	0.167614
262	0.162583
263	0.157767
264	0.153338
265	0.149726
266	0.146243
267	0.143233
268	0.140352
269	0.137127
270	0.133773
271	0.130634
272	0.127581
273	0.124399
274	0.121303
275	0.118336
276	0.115584
277	0.113004
278	0.11051
279	0.108317
280	0.106124
281	0.103888
282	0.101652
283	0.099072
284	0.096535
285	0.094256
286	0.092106
287	0.089999
288	0.087935
289	0.086516
290	0.085269
291	0.083635
292	0.082044
293	0.080496
294	0.078991
295	0.077744
296	0.076411
297	0.075164
298	0.074003
299	0.072713
300	0.07138
301	0.070219
302	0.069058
303	0.067639
304	0.066177
305	0.064844
306	0.063554
307	0.062264
308	0.061017
309	0.059727
310	0.058523
311	0.057663
312	0.056803
313	0.055814
314	0.054825
315	0.053965
316	0.053148
317	0.052159
318	0.05117
319	0.050267
320	0.049364
321	0.048461
322	0.047601
323	0.046827
324	0.046096
325	0.045279
326	0.044462
327	0.043688
328	0.042957
329	0.042398
330	0.041839
331	0.041151
332	0.040549
333	0.03999
3

File: Coating_Data-PN_FN126-N-1D_ RN_122821A1.csv
Wavelength(nm),   Transmittance(%)
115,9.75
115.5,11.28
116,13.75
116.5,14.38
117,15.75
117.5,16.66
118,18.74
118.5,19.66
119,20.97
119.5,22.53
120,22.92
120.5,23.69
121,24.56
121.5,24.89
122,25.11
122.5,25.68
123,26.24
123.5,26.85
124,26.44
124.5,25.51
125,24.55
125.5,23.99
126,23.40
126.5,22.78
127,22.04
127.5,21.25
128,20.75
128.5,19.86
129,19.10
129.5,18.44
130,17.88
130.5,17.33
131,16.75
131.5,16.13
132,15.61
132.5,15.08
133,14.53
133.5,14.00
134,13.54
134.5,13.07
135,12.67
135.5,12.26
136,11.86
136.5,11.49
137,11.16
137.5,10.79
138,10.49
138.5,10.22
139,9.96
139.5,9.67
140,9.43
140.5,9.17
141,8.95
141.5,8.73
142,8.51
142.5,8.33
143,8.16
143.5,7.98
144,7.78
144.5,7.65
145,7.51
145.5,7.36
146,7.22
146.5,7.11
147,6.98
147.5,6.88
148,6.77
148.5,6.67
149,6.56
149.5,6.48
150,6.40
150.5,6.32
151,6.22
151.5,6.14
152,6.08
152.5,6.00
153,5.94
153.5,5.88
154,5.82
154.5,5.75
155,5.68
155.5,5.62
156,5.58
156.5,5.52
157,5.48
157.5,5.41
158,5.38
158.5,5.33
159,5.29
159.5,5.25
160,5.19
160.5,5.15
161,5.09
161.5,5.06
162,5.04
162.5,4.98
163,4.95
163.5,4.91
164,4.88
164.5,4.84
165,4.80
165.5,4.77
166,4.73
166.5,4.66
167,4.66
167.5,4.59
168,4.57
168.5,4.58
169,4.52
169.5,4.49
170,4.44
170.5,4.42
171,4.36
171.5,4.36
172,4.32
172.5,4.29
173,4.23
173.5,4.23
174,4.18
174.5,4.18
175,4.10
175.5,4.08
176,4.06
176.5,4.02
177,3.96
177.5,3.93
178,3.89
178.5,3.87
179,3.86
179.5,3.82
180,3.76
180.5,3.68
181,3.66
181.5,3.65
182,3.60
182.5,3.59
183,3.55
183.5,3.48
184,3.48
184.5,3.42
185,3.39
185.5,3.33
186,3.32
186.5,3.27
187,3.27
187.5,3.23
188,3.19
188.5,3.16
189,3.14
189.5,3.08
190,3.06
190.5,3.02
191,2.99
191.5,2.96
192,2.94
192.5,2.88
193,2.83
193.5,2.85
194,2.76
194.5,2.75
195,2.73
195.5,2.69
196,2.66
196.5,2.63
197,2.60
197.5,2.63
198,2.54
198.5,2.54
199,2.51
199.5,2.46
200,2.44

File: FB130-B-1D_ Coating Run 04252A1.csv
Wavelength(nm),   Transmittance(%)
120,24.46
123,36.69
126,41.54
129,41.14
132,39.53
135,36.65
138,33.99
141,30.88
144,28.88
147,26.78
150,24.90
153,22.95
156,21.56
159,20.22
162,18.97
165,17.88
168,16.83
171,15.84
174,14.88
177,14.04
180,12.59
183,11.74
186,10.86
189,10.25
192,9.44
195,9.06
198,8.50
201,7.89
204,7.49
207,7.19
210,6.82
213,6.42
216,6.09
219,5.71
222,5.47
225,5.21
228,4.92
231,4.71
234,4.47
237,4.25
240,4.14
243,3.90
246,3.71
249,3.55
252,3.39
255,3.25
258,3.12
261,2.95
264,2.85
267,2.77
270,2.66
273,2.62
276,2.55
279,2.52
282,2.41
285,2.32
288,2.31
291,2.20
294,2.15
297,2.10
300,2.04
303,1.97
306,1.93
309,1.89
312,1.81
315,1.76
318,1.74
321,1.78
324,1.71
327,1.66
330,1.55
333,1.48
336,1.44
339,1.41
342,1.36
345,1.33
348,1.28
351,1.15
354,1.12
357,1.09
360,1.08
363,1.04
366,1.02
369,0.99
372,0.96
375,0.95
378,0.91
381,0.89
384,0.87
387,0.86
390,0.84
393,0.82
396,0.80
399,0.78